C10H8O4 Density=1.4 Thickness=0.9 microns
 Wavelength (nm), Transmission
   0.41000      0.98412    
   0.42918      0.98186    
   0.44836      0.97940    
   0.46754      0.97675    
   0.48672      0.97389    
   0.50590      0.97083    
   0.52508      0.96756    
   0.54426      0.96407    
   0.56344      0.96037    
   0.58262      0.95644    
   0.60180      0.95229    
   0.62098      0.94794    
   0.64016      0.94335    
   0.65934      0.93852    
   0.67852      0.93345    
   0.69770      0.92813    
   0.71688      0.92258    
   0.73606      0.91684    
   0.75524      0.91086    
   0.77442      0.90463    
   0.79360      0.89816    
   0.81278      0.89145    
   0.83196      0.88451    
   0.85114      0.87741    
   0.87032      0.87009    
   0.88950      0.86254    
   0.90868      0.85477    
   0.92786      0.84677    
   0.94704      0.83855    
   0.96622      0.83011    
   0.98540      0.82148    
    1.0046      0.81272    
    1.0238      0.80381    
    1.0429      0.79471    
    1.0621      0.78542    
    1.0813      0.77596    
    1.1005      0.76631    
    1.1197      0.75649    
    1.1388      0.74651    
    1.1580      0.73637    
    1.1772      0.72607    
    1.1964      0.71571    
    1.2156      0.70531    
    1.2347      0.69476    
    1.2539      0.68406    
    1.2731      0.67324    
    1.2923      0.66232    
    1.3115      0.65133    
    1.3306      0.64032    
    1.3498      0.62936    
    1.3690      0.61853    
    1.3882      0.60764    
    1.4074      0.59671    
    1.4265      0.58574    
    1.4457      0.57467    
    1.4649      0.56351    
    1.4841      0.55224    
    1.5033      0.54090    
    1.5224      0.52955    
    1.5416      0.51820    
    1.5608      0.50687    
    1.5800      0.49556    
    1.5992      0.48438    
    1.6183      0.47332    
    1.6375      0.46235    
    1.6567      0.45145    
    1.6759      0.44062    
    1.6951      0.42985    
    1.7142      0.41915    
    1.7334      0.40852    
    1.7526      0.39835    
    1.7718      0.38859    
    1.7910      0.37935    
    1.8101      0.37012    
    1.8293      0.36084    
    1.8485      0.35142    
    1.8677      0.34174    
    1.8869      0.33209    
    1.9060      0.32257    
    1.9252      0.31325    
    1.9444      0.30410    
    1.9636      0.29525    
    1.9828      0.28657    
    2.0019      0.27809    
    2.0211      0.26976    
    2.0403      0.26157    
    2.0595      0.25351    
    2.0787      0.24560    
    2.0978      0.23784    
    2.1170      0.23022    
    2.1362      0.22273    
    2.1554      0.21539    
    2.1746      0.20819    
    2.1937      0.20108    
    2.2129      0.19413    
    2.2321      0.18732    
    2.2513      0.18067    
    2.2705      0.17417    
    2.2896      0.39519    
    2.3088      0.38745    
    2.3280      0.37976    
    2.3472      0.37212    
    2.3664      0.36455    
    2.3855      0.35704    
    2.4047      0.34959    
    2.4239      0.34221    
    2.4431      0.33490    
    2.4623      0.32766    
    2.4814      0.32050    
    2.5006      0.31340    
    2.5198      0.30639    
    2.5390      0.29945    
    2.5582      0.29262    
    2.5773      0.28597    
    2.5965      0.27939    
    2.6157      0.27290    
    2.6349      0.26649    
    2.6541      0.26017    
    2.6732      0.25393    
    2.6924      0.24777    
    2.7116      0.24171    
    2.7308      0.23572    
    2.7500      0.22983    
    2.7691      0.22402    
    2.7883      0.21831    
    2.8075      0.21268    
    2.8267      0.20714    
    2.8459      0.20170    
    2.8650      0.19634    
    2.8842      0.19107    
    2.9034      0.18590    
    2.9226      0.18082    
    2.9418      0.17582    
    2.9609      0.17092    
    2.9801      0.16612    
    2.9993      0.16140    
    3.0185      0.15677    
    3.0377      0.15223    
    3.0568      0.14779    
    3.0760      0.14343    
    3.0952      0.13917    
    3.1144      0.13499    
    3.1336      0.13090    
    3.1527      0.12690    
    3.1719      0.12299    
    3.1911      0.11917    
    3.2103      0.11543    
    3.2295      0.11178    
    3.2486      0.10822    
    3.2678      0.10487    
    3.2870      0.10160    
    3.3062      0.98467E-01
    3.3254      0.95542E-01
    3.3445      0.92684E-01
    3.3637      0.89891E-01
    3.3829      0.87164E-01
    3.4021      0.84501E-01
    3.4213      0.81902E-01
    3.4404      0.79366E-01
    3.4596      0.76891E-01
    3.4788      0.74478E-01
    3.4980      0.72124E-01
    3.5172      0.69830E-01
    3.5363      0.67593E-01
    3.5555      0.65414E-01
    3.5747      0.63292E-01
    3.5939      0.61225E-01
    3.6131      0.59212E-01
    3.6322      0.57253E-01
    3.6514      0.55346E-01
    3.6706      0.53491E-01
    3.6898      0.51687E-01
    3.7090      0.49933E-01
    3.7281      0.48227E-01
    3.7473      0.46569E-01
    3.7665      0.44959E-01
    3.7857      0.43395E-01
    3.8049      0.41875E-01
    3.8240      0.40400E-01
    3.8432      0.38968E-01
    3.8624      0.37578E-01
    3.8816      0.36230E-01
    3.9008      0.34922E-01
    3.9199      0.33654E-01
    3.9391      0.32425E-01
    3.9583      0.31234E-01
    3.9775      0.30079E-01
    3.9967      0.28961E-01
    4.0158      0.27878E-01
    4.0350      0.26830E-01
    4.0542      0.25815E-01
    4.0734      0.24833E-01
    4.0926      0.23883E-01
    4.1117      0.22964E-01
    4.1309      0.22075E-01
    4.1501      0.21216E-01
    4.1693      0.20385E-01
    4.1885      0.19583E-01
    4.2076      0.18808E-01
    4.2268      0.18060E-01
    4.2460      0.17337E-01
    4.2652      0.16640E-01
    4.2844      0.15966E-01
    4.3035      0.15317E-01
    4.3227      0.14691E-01
    4.3419      0.14087E-01
    4.3611      0.14140E-01
    4.3803      0.67966    
    4.3994      0.67641    
    4.4186      0.67315    
    4.4378      0.66989    
    4.4570      0.66661    
    4.4762      0.66333    
    4.4953      0.66005    
    4.5145      0.65676    
    4.5337      0.65346    
    4.5529      0.65015    
    4.5721      0.64685    
    4.5912      0.64353    
    4.6104      0.64021    
    4.6296      0.63687    
    4.6488      0.63353    
    4.6680      0.63018    
    4.6871      0.62682    
    4.7063      0.62346    
    4.7255      0.62009    
    4.7447      0.61671    
    4.7639      0.61332    
    4.7830      0.60992    
    4.8022      0.60652    
    4.8214      0.60312    
    4.8406      0.59970    
    4.8598      0.59628    
    4.8789      0.59286    
    4.8981      0.58943    
    4.9173      0.58599    
    4.9365      0.58255    
    4.9557      0.57911    
    4.9748      0.57566    
    4.9940      0.57220    
    5.0132      0.56881    
    5.0324      0.56564    
    5.0516      0.56247    
    5.0707      0.55930    
    5.0899      0.55613    
    5.1091      0.55304    
    5.1283      0.54995    
    5.1475      0.54685    
    5.1666      0.54376    
    5.1858      0.54050    
    5.2050      0.53718    
    5.2242      0.53386    
    5.2434      0.53054    
    5.2625      0.52720    
    5.2817      0.52382    
    5.3009      0.52044    
    5.3201      0.51706    
    5.3393      0.51368    
    5.3584      0.51030    
    5.3776      0.50692    
    5.3968      0.50354    
    5.4160      0.50017    
    5.4352      0.49680    
    5.4543      0.49342    
    5.4735      0.49006    
    5.4927      0.48669    
    5.5119      0.48332    
    5.5311      0.47996    
    5.5502      0.47661    
    5.5694      0.47325    
    5.5886      0.46990    
    5.6078      0.46654    
    5.6270      0.46315    
    5.6461      0.45976    
    5.6653      0.45637    
    5.6845      0.45299    
    5.7037      0.44960    
    5.7229      0.44621    
    5.7420      0.44281    
    5.7612      0.43943    
    5.7804      0.43605    
    5.7996      0.43268    
    5.8188      0.42931    
    5.8379      0.42595    
    5.8571      0.42259    
    5.8763      0.41924    
    5.8955      0.41590    
    5.9147      0.41257    
    5.9338      0.40924    
    5.9530      0.40592    
    5.9722      0.40261    
    5.9914      0.39930    
    6.0106      0.39601    
    6.0297      0.39272    
    6.0489      0.38944    
    6.0681      0.38617    
    6.0873      0.38291    
    6.1065      0.37966    
    6.1256      0.37642    
    6.1448      0.37318    
    6.1640      0.36996    
    6.1832      0.36674    
    6.2024      0.36354    
    6.2215      0.36034    
    6.2407      0.35716    
    6.2599      0.35399    
    6.2791      0.35083    
    6.2983      0.34767    
    6.3174      0.34453    
    6.3366      0.34141    
    6.3558      0.33829    
    6.3750      0.33518    
    6.3942      0.33209    
    6.4133      0.32901    
    6.4325      0.32594    
    6.4517      0.32288    
    6.4709      0.31983    
    6.4901      0.31680    
    6.5092      0.31378    
    6.5284      0.31077    
    6.5476      0.30778    
    6.5668      0.30480    
    6.5860      0.30183    
    6.6051      0.29888    
    6.6243      0.29594    
    6.6435      0.29302    
    6.6627      0.29011    
    6.6819      0.28721    
    6.7010      0.28448    
    6.7202      0.28180    
    6.7394      0.27913    
    6.7586      0.27647    
    6.7778      0.27383    
    6.7969      0.27124    
    6.8161      0.26894    
    6.8353      0.26664    
    6.8545      0.26436    
    6.8737      0.26209    
    6.8928      0.25983    
    6.9120      0.25764    
    6.9312      0.25553    
    6.9504      0.25344    
    6.9696      0.25135    
    6.9887      0.24928    
    7.0079      0.24721    
    7.0271      0.24516    
    7.0463      0.24312    
    7.0655      0.24108    
    7.0846      0.23906    
    7.1038      0.23705    
    7.1230      0.23505    
    7.1422      0.23306    
    7.1614      0.23108    
    7.1805      0.22911    
    7.1997      0.22715    
    7.2189      0.22520    
    7.2381      0.22327    
    7.2573      0.22134    
    7.2764      0.21942    
    7.2956      0.21752    
    7.3148      0.21563    
    7.3340      0.21374    
    7.3532      0.21187    
    7.3723      0.21001    
    7.3915      0.20815    
    7.4107      0.20631    
    7.4299      0.20448    
    7.4491      0.20266    
    7.4682      0.20085    
    7.4874      0.19906    
    7.5066      0.19727    
    7.5258      0.19549    
    7.5450      0.19373    
    7.5641      0.19197    
    7.5833      0.19023    
    7.6025      0.18850    
    7.6217      0.18677    
    7.6409      0.18506    
    7.6600      0.18336    
    7.6792      0.18167    
    7.6984      0.17999    
    7.7176      0.17832    
    7.7368      0.17666    
    7.7559      0.17501    
    7.7751      0.17337    
    7.7943      0.17174    
    7.8135      0.17013    
    7.8327      0.16852    
    7.8518      0.16692    
    7.8710      0.16534    
    7.8902      0.16376    
    7.9094      0.16220    
    7.9286      0.16065    
    7.9477      0.15910    
    7.9669      0.15757    
    7.9861      0.15605    
    8.0053      0.15454    
    8.0245      0.15304    
    8.0436      0.15155    
    8.0628      0.15007    
    8.0820      0.14860    
    8.1012      0.14714    
    8.1204      0.14569    
    8.1395      0.14425    
    8.1587      0.14282    
    8.1779      0.14140    
    8.1971      0.13999    
    8.2163      0.13859    
    8.2354      0.13720    
    8.2546      0.13583    
    8.2738      0.13446    
    8.2930      0.13310    
    8.3122      0.13175    
    8.3313      0.13041    
    8.3505      0.12909    
    8.3697      0.12777    
    8.3889      0.12646    
    8.4081      0.12516    
    8.4272      0.12387    
    8.4464      0.12260    
    8.4656      0.12133    
    8.4848      0.12007    
    8.5040      0.11882    
    8.5231      0.11758    
    8.5423      0.11635    
    8.5615      0.11513    
    8.5807      0.11392    
    8.5999      0.11272    
    8.6190      0.11153    
    8.6382      0.11034    
    8.6574      0.10917    
    8.6766      0.10801    
    8.6958      0.10686    
    8.7149      0.10571    
    8.7341      0.10458    
    8.7533      0.10345    
    8.7725      0.10233    
    8.7917      0.10123    
    8.8108      0.10013    
    8.8300      0.99040E-01
    8.8492      0.97959E-01
    8.8684      0.96888E-01
    8.8876      0.95826E-01
    8.9067      0.94773E-01
    8.9259      0.93729E-01
    8.9451      0.92694E-01
    8.9643      0.91667E-01
    8.9835      0.90650E-01
    9.0026      0.89641E-01
    9.0218      0.88641E-01
    9.0410      0.87649E-01
    9.0602      0.86666E-01
    9.0794      0.85692E-01
    9.0985      0.84726E-01
    9.1177      0.83769E-01
    9.1369      0.82820E-01
    9.1561      0.81880E-01
    9.1753      0.80948E-01
    9.1944      0.80025E-01
    9.2136      0.79109E-01
    9.2328      0.78185E-01
    9.2520      0.77268E-01
    9.2712      0.76359E-01
    9.2903      0.75459E-01
    9.3095      0.74567E-01
    9.3287      0.73683E-01
    9.3479      0.72808E-01
    9.3671      0.71943E-01
    9.3862      0.71108E-01
    9.4054      0.70280E-01
    9.4246      0.69460E-01
    9.4438      0.68648E-01
    9.4630      0.67843E-01
    9.4821      0.67046E-01
    9.5013      0.66257E-01
    9.5205      0.65474E-01
    9.5397      0.64700E-01
    9.5589      0.63932E-01
    9.5780      0.63172E-01
    9.5972      0.62420E-01
    9.6164      0.61674E-01
    9.6356      0.60936E-01
    9.6548      0.60204E-01
    9.6739      0.59480E-01
    9.6931      0.58763E-01
    9.7123      0.58053E-01
    9.7315      0.57350E-01
    9.7507      0.56653E-01
    9.7698      0.55964E-01
    9.7890      0.55281E-01
    9.8082      0.54605E-01
    9.8274      0.53936E-01
    9.8466      0.53274E-01
    9.8657      0.52619E-01
    9.8849      0.51970E-01
    9.9041      0.51327E-01
    9.9233      0.50691E-01
    9.9425      0.50062E-01
    9.9616      0.49439E-01
    9.9808      0.48823E-01
    10.000      0.48212E-01
 10.080      0.45734E-01
    10.160      0.43362E-01
    10.240      0.41093E-01
    10.320      0.38924E-01
    10.400      0.36850E-01
    10.480      0.34870E-01
    10.560      0.32980E-01
    10.640      0.31177E-01
    10.720      0.29458E-01
    10.800      0.27820E-01
    10.880      0.26259E-01
    10.960      0.24774E-01
    11.040      0.23362E-01
    11.120      0.22018E-01
    11.200      0.20742E-01
    11.280      0.19530E-01
    11.360      0.18379E-01
    11.440      0.17287E-01
    11.520      0.16253E-01
    11.600      0.15272E-01
    11.680      0.14343E-01
    11.760      0.13464E-01
    11.840      0.12633E-01
    11.920      0.11846E-01
    12.000      0.11104E-01
    12.080      0.10402E-01
    12.160      0.97400E-02
    12.240      0.91152E-02
    12.320      0.85262E-02
    12.400      0.79711E-02
    12.480      0.74484E-02
    12.560      0.69872E-02
    12.640      0.65618E-02
    12.720      0.61629E-02
    12.800      0.57962E-02
    12.880      0.54494E-02
    12.960      0.51215E-02
    13.040      0.48117E-02
    13.120      0.45189E-02
    13.200      0.42424E-02
    13.280      0.39814E-02
    13.360      0.37351E-02
    13.440      0.35027E-02
    13.520      0.32837E-02
    13.600      0.30772E-02
    13.680      0.28827E-02
    13.760      0.26994E-02
    13.840      0.25270E-02
    13.920      0.23647E-02
    14.000      0.22120E-02
    14.080      0.20684E-02
    14.160      0.19334E-02
    14.240      0.18066E-02
    14.320      0.16875E-02
    14.400      0.15757E-02
    14.480      0.14708E-02
    14.560      0.13723E-02
    14.640      0.12800E-02
    14.720      0.11935E-02
    14.800      0.11124E-02
    14.880      0.10364E-02
    14.960      0.96531E-03
    15.040      0.89877E-03
    15.120      0.83651E-03
    15.200      0.77828E-03
    15.280      0.72384E-03
    15.360      0.67297E-03
    15.440      0.62545E-03
    15.520      0.58107E-03
    15.600      0.53965E-03
    15.680      0.50100E-03
    15.760      0.46495E-03
    15.840      0.43134E-03
    15.920      0.40002E-03
    16.000      0.37083E-03
    16.080      0.34364E-03
    16.160      0.31834E-03
    16.240      0.29479E-03
    16.320      0.27289E-03
    16.400      0.25253E-03
    16.480      0.23360E-03
    16.560      0.21601E-03
    16.640      0.19967E-03
    16.720      0.18450E-03
    16.800      0.17042E-03
    16.880      0.15736E-03
    16.960      0.14524E-03
    17.040      0.13402E-03
    17.120      0.12361E-03
    17.200      0.11397E-03
    17.280      0.10505E-03
    17.360      0.96785E-04
    17.440      0.89141E-04
    17.520      0.82070E-04
    17.600      0.75525E-04
    17.680      0.69477E-04
    17.760      0.63890E-04
    17.840      0.58716E-04
    17.920      0.53933E-04
    18.000      0.49521E-04
    18.080      0.45453E-04
    18.160      0.41704E-04
    18.240      0.38250E-04
    18.320      0.35069E-04
    18.400      0.32141E-04
    18.480      0.29446E-04
    18.560      0.26968E-04
    18.640      0.24688E-04
    18.720      0.22593E-04
    18.800      0.20669E-04
    18.880      0.18901E-04
    18.960      0.17278E-04
    19.040      0.15789E-04
    19.120      0.14422E-04
    19.200      0.13169E-04
    19.280      0.12020E-04
    19.360      0.10968E-04
    19.440      0.10004E-04
    19.520      0.91211E-05
    19.600      0.83133E-05
    19.680      0.75744E-05
    19.760      0.68987E-05
    19.840      0.62809E-05
    19.920      0.57163E-05
    20.000      0.52006E-05
    20.080      0.47296E-05
    20.160      0.42997E-05
    20.240      0.39114E-05
    20.320      0.35791E-05
    20.400      0.32740E-05
    20.480      0.29941E-05
    20.560      0.27377E-05
    20.640      0.25096E-05
    20.720      0.22999E-05
    20.800      0.21072E-05
    20.880      0.19301E-05
    20.960      0.17674E-05
    21.040      0.16181E-05
    21.120      0.14809E-05
    21.200      0.13551E-05
    21.280      0.12396E-05
    21.360      0.11337E-05
    21.440      0.10365E-05
    21.520      0.94750E-06
    21.600      0.86587E-06
    21.680      0.79106E-06
    21.760      0.72254E-06
    21.840      0.65978E-06
    21.920      0.60232E-06
    22.000      0.54972E-06
    22.080      0.50158E-06
    22.160      0.45754E-06
    22.240      0.41726E-06
    22.320      0.38043E-06
    22.400      0.34677E-06
    22.480      0.31600E-06
    22.560      0.28789E-06
    22.640      0.26222E-06
    22.720      0.23877E-06
    22.800      0.21737E-06
    22.880      0.19783E-06
    22.960      0.18000E-06
    23.040      0.16343E-06
    23.120      0.14806E-06
    23.200      0.13410E-06
    23.280      0.12142E-06
    23.360      0.10991E-06
    23.440      0.99056E-07
    23.520      0.89185E-07
    23.600      0.80271E-07
    23.680      0.72223E-07
    23.760      0.64961E-07
    23.840      0.58409E-07
    23.920      0.52500E-07
    24.000      0.47173E-07
    24.080      0.42373E-07
    24.160      0.38048E-07
    24.240      0.34153E-07
    24.320      0.30647E-07
    24.400      0.27492E-07
    24.480      0.24653E-07
    24.560      0.22101E-07
    24.640      0.19806E-07
    24.720      0.17743E-07
    24.800      0.15890E-07
    24.880      0.14226E-07
    24.960      0.12732E-07
    25.040      0.11391E-07
    25.120      0.10188E-07
    25.200      0.91093E-08
    25.280      0.81419E-08
    25.360      0.73056E-08
    25.440      0.65863E-08
    25.520      0.59362E-08
    25.600      0.53489E-08
    25.680      0.48184E-08
    25.760      0.43454E-08
    25.840      0.39286E-08
    25.920      0.35510E-08
    26.000      0.32088E-08
    26.080      0.28989E-08
    26.160      0.26183E-08
    26.240      0.23643E-08
    26.320      0.21344E-08
    26.400      0.19264E-08
    26.480      0.17382E-08
    26.560      0.15681E-08
    26.640      0.14142E-08
    26.720      0.12751E-08
    26.800      0.11494E-08
    26.880      0.10359E-08
    26.960      0.93333E-09
    27.040      0.84072E-09
    27.120      0.75712E-09
    27.200      0.68167E-09
    27.280      0.61358E-09
    27.360      0.55217E-09
    27.440      0.49667E-09
    27.520      0.44178E-09
    27.600      0.39282E-09
    27.680      0.34915E-09
    27.760      0.31023E-09
    27.840      0.27555E-09
    27.920      0.24453E-09
    28.000      0.21680E-09
    28.080      0.19214E-09
    28.160      0.17022E-09
    28.240      0.15074E-09
    28.320      0.13345E-09
    28.400      0.11809E-09
    28.480      0.10446E-09
    28.560      0.92369E-10
    28.640      0.81648E-10
    28.720      0.72144E-10
    28.800      0.63723E-10
    28.880      0.56264E-10
    28.960      0.49660E-10
    29.040      0.43814E-10
    29.120      0.38643E-10
    29.200      0.34069E-10
    29.280      0.30025E-10
    29.360      0.26451E-10
    29.440      0.23294E-10
    29.520      0.20506E-10
    29.600      0.18045E-10
    29.680      0.15873E-10
    29.760      0.13958E-10
    29.840      0.12268E-10
    29.920      0.10779E-10
    30.000      0.94677E-11
    30.080      0.83124E-11
    30.160      0.72953E-11
    30.240      0.64004E-11
    30.320      0.56135E-11
    30.400      0.49214E-11
    30.480      0.43130E-11
    30.560      0.37784E-11
    30.640      0.33088E-11
    30.720      0.28965E-11
    30.800      0.25346E-11
    30.880      0.22170E-11
    30.960      0.19385E-11
    31.040      0.16944E-11
    31.120      0.14804E-11
    31.200      0.12932E-11
    31.280      0.11344E-11
    31.360      0.99478E-12
    31.440      0.87205E-12
    31.520      0.76419E-12
    31.600      0.66944E-12
    31.680      0.58625E-12
    31.760      0.51525E-12
    31.840      0.45335E-12
    31.920      0.39878E-12
    32.000      0.35067E-12
    32.080      0.30828E-12
    32.160      0.27092E-12
    32.240      0.23803E-12
    32.320      0.20908E-12
    32.400      0.18359E-12
    32.480      0.16116E-12
    32.560      0.14143E-12
    32.640      0.12408E-12
    32.720      0.10882E-12
    32.800      0.95414E-13
    32.880      0.83632E-13
    32.960      0.73284E-13
    33.040      0.64197E-13
    33.120      0.56220E-13
    33.200      0.49220E-13
    33.280      0.43079E-13
    33.360      0.37694E-13
    33.440      0.32972E-13
    33.520      0.28833E-13
    33.600      0.25206E-13
    33.680      0.22029E-13
    33.760      0.19247E-13
    33.840      0.16849E-13
    33.920      0.14783E-13
    34.000      0.12966E-13
    34.080      0.11370E-13
    34.160      0.99674E-14
    34.240      0.87355E-14
    34.320      0.76536E-14
    34.400      0.67793E-14
    34.480      0.60419E-14
    34.560      0.53834E-14
    34.640      0.47955E-14
    34.720      0.42708E-14
    34.800      0.38026E-14
    34.880      0.33848E-14
    34.960      0.30111E-14
    35.040      0.26775E-14
    35.120      0.23803E-14
    35.200      0.21155E-14
    35.280      0.18797E-14
    35.360      0.16698E-14
    35.440      0.14829E-14
    35.520      0.13140E-14
    35.600      0.11626E-14
    35.680      0.10284E-14
    35.760      0.90937E-15
    35.840      0.80393E-15
    35.920      0.71052E-15
    36.000      0.62779E-15
    36.080      0.55454E-15
    36.160      0.48969E-15
    36.240      0.43231E-15
    36.320      0.38154E-15
    36.400      0.33665E-15
    36.480      0.29695E-15
    36.560      0.26186E-15
    36.640      0.23086E-15
    36.720      0.20347E-15
    36.800      0.17928E-15
    36.880      0.15792E-15
    36.960      0.13907E-15
    37.040      0.12243E-15
    37.120      0.10776E-15
    37.200      0.94815E-16
    37.280      0.83403E-16
    37.360      0.73343E-16
    37.440      0.64479E-16
    37.520      0.56671E-16
    37.600      0.49793E-16
    37.680      0.43738E-16
    37.760      0.38409E-16
    37.840      0.33720E-16
    37.920      0.29595E-16
    38.000      0.25967E-16
    38.080      0.22777E-16
    38.160      0.19974E-16
    38.240      0.17510E-16
    38.320      0.15346E-16
    38.400      0.13446E-16
    38.480      0.11778E-16
    38.560      0.10313E-16
    38.640      0.90283E-17
    38.720      0.79013E-17
    38.800      0.69130E-17
    38.880      0.60465E-17
    38.960      0.52872E-17
    39.040      0.46219E-17
    39.120      0.40392E-17
    39.200      0.35289E-17
    39.280      0.30823E-17
    39.360      0.26914E-17
    39.440      0.23494E-17
    39.520      0.20503E-17
    39.600      0.17887E-17
    39.680      0.15601E-17
    39.760      0.13603E-17
    39.840      0.11859E-17
    39.920      0.10335E-17
    40.000      0.90038E-18
    40.080      0.78422E-18
    40.160      0.68284E-18
    40.240      0.59440E-18
    40.320      0.51727E-18
    40.400      0.45006E-18
    40.480      0.39147E-18
    40.560      0.34041E-18
    40.640      0.29593E-18
    40.720      0.25718E-18
    40.800      0.22345E-18
    40.880      0.19408E-18
    40.960      0.16852E-18
    41.040      0.14624E-18
    41.120      0.12686E-18
    41.200      0.11002E-18
    41.280      0.95379E-19
    41.360      0.82664E-19
    41.440      0.71623E-19
    41.520      0.62040E-19
    41.600      0.53722E-19
    41.680      0.46595E-19
    41.760      0.40490E-19
    41.840      0.35175E-19
    41.920      0.30549E-19
    42.000      0.26525E-19
    42.080      0.23024E-19
    42.160      0.19980E-19
    42.240      0.17334E-19
    42.320      0.15034E-19
    42.400      0.13035E-19
    42.480      0.11300E-19
    42.560      0.97924E-20
    42.640      0.84838E-20
    42.720      0.73480E-20
    42.800      0.63626E-20
    42.880      0.55078E-20
    42.960      0.47666E-20
    43.040      0.41240E-20
    43.120      0.35670E-20
    43.200      0.30845E-20
    43.280      0.26664E-20
    43.360      0.23044E-20
    43.440      0.19910E-20
    43.520      0.17198E-20
    43.600      0.14851E-20
    43.680      0.12820E-20
    43.760      0.11064E-20
    43.840      0.95462E-21
    43.920      0.82341E-21
    44.000      0.71004E-21
    44.080      0.61212E-21
    44.160      0.52754E-21
    44.240      0.45453E-21
    44.320      0.39152E-21
    44.400      0.33714E-21
    44.480      0.29024E-21
    44.560      0.24980E-21
    44.640      0.21493E-21
    44.720      0.18488E-21
    44.800      0.15898E-21
    44.880      0.13668E-21
    44.960      0.11747E-21
    45.040      0.10093E-21
    45.120      0.86696E-22
    45.200      0.74447E-22
    45.280      0.63910E-22
    45.360      0.54850E-22
    45.440      0.47060E-22
    45.520      0.40366E-22
    45.600      0.34614E-22
    45.680      0.29673E-22
    45.760      0.25430E-22
    45.840      0.21788E-22
    45.920      0.18663E-22
    46.000      0.15981E-22
    46.080      0.13680E-22
    46.160      0.11708E-22
    46.240      0.10017E-22
    46.320      0.85678E-23
    46.400      0.73262E-23
    46.480      0.62628E-23
    46.560      0.53522E-23
    46.640      0.45727E-23
    46.720      0.39058E-23
    46.800      0.33351E-23
    46.880      0.28470E-23
    46.960      0.24297E-23
    47.040      0.20729E-23
    47.120      0.17680E-23
    47.200      0.15076E-23
    47.280      0.12851E-23
    47.360      0.10971E-23
    47.440      0.94415E-24
    47.520      0.81231E-24
    47.600      0.69872E-24
    47.680      0.60086E-24
    47.760      0.51660E-24
    47.840      0.44404E-24
    47.920      0.38159E-24
    48.000      0.32785E-24
    48.080      0.28161E-24
    48.160      0.24194E-24
    48.240      0.20787E-24
    48.320      0.17855E-24
    48.400      0.15333E-24
    48.480      0.13165E-24
    48.560      0.11300E-24
    48.640      0.96976E-25
    48.720      0.83204E-25
    48.800      0.71371E-25
    48.880      0.61206E-25
    48.960      0.52478E-25
    49.040      0.44984E-25
    49.120      0.38552E-25
    49.200      0.33031E-25
    49.280      0.28294E-25
    49.360      0.24231E-25
    49.440      0.20747E-25
    49.520      0.17760E-25
    49.600      0.15199E-25
    49.680      0.13004E-25
    49.760      0.11123E-25
    49.840      0.95125E-26
    49.920      0.81330E-26
    50.000      0.69520E-26