 Ni Density=8.902 Thickness=0.2 microns
 Wavelength (nm), Transmission
   0.41000      0.88657    
   0.42918      0.87291    
   0.44836      0.85847    
   0.46754      0.84326    
   0.48672      0.82732    
   0.50590      0.81069    
   0.52508      0.79340    
   0.54426      0.77548    
   0.56344      0.75699    
   0.58262      0.73797    
   0.60180      0.71847    
   0.62098      0.69869    
   0.64016      0.67850    
   0.65934      0.65795    
   0.67852      0.63709    
   0.69770      0.61599    
   0.71688      0.59478    
   0.73606      0.57371    
   0.75524      0.55258    
   0.77442      0.53143    
   0.79360      0.51032    
   0.81278      0.48930    
   0.83196      0.46850    
   0.85114      0.44839    
   0.87032      0.42863    
   0.88950      0.40916    
   0.90868      0.39000    
   0.92786      0.37118    
   0.94704      0.35274    
   0.96622      0.33470    
   0.98540      0.31717    
    1.0046      0.30021    
    1.0238      0.28382    
    1.0429      0.26792    
    1.0621      0.25254    
    1.0813      0.23768    
    1.1005      0.22334    
    1.1197      0.20955    
    1.1388      0.19630    
    1.1580      0.18360    
    1.1772      0.17146    
    1.1964      0.15996    
    1.2156      0.14922    
    1.2347      0.15346    
    1.2539      0.15669    
    1.2731      0.15224    
    1.2923      0.14341    
    1.3115      0.13380    
    1.3306      0.12479    
    1.3498      0.11626    
    1.3690      0.10801    
    1.3882      0.10020    
    1.4074      0.92822E-01
    1.4265      0.85862E-01
    1.4457      0.79309E-01
    1.4649      0.72295    
    1.4841      0.71687    
    1.5033      0.71076    
    1.5224      0.70462    
    1.5416      0.69847    
    1.5608      0.69227    
    1.5800      0.68598    
    1.5992      0.67933    
    1.6183      0.67229    
    1.6375      0.66585    
    1.6567      0.65990    
    1.6759      0.64750    
    1.6951      0.63493    
    1.7142      0.62305    
    1.7334      0.61366    
    1.7526      0.60603    
    1.7718      0.59884    
    1.7910      0.59163    
    1.8101      0.58443    
    1.8293      0.57722    
    1.8485      0.57002    
    1.8677      0.56282    
    1.8869      0.55562    
    1.9060      0.54844    
    1.9252      0.54126    
    1.9444      0.53410    
    1.9636      0.52695    
    1.9828      0.51981    
    2.0019      0.51269    
    2.0211      0.50543    
    2.0403      0.49808    
    2.0595      0.48996    
    2.0787      0.48186    
    2.0978      0.47378    
    2.1170      0.46573    
    2.1362      0.45771    
    2.1554      0.44973    
    2.1746      0.44178    
    2.1937      0.43386    
    2.2129      0.42599    
    2.2321      0.41816    
    2.2513      0.41038    
    2.2705      0.40264    
    2.2896      0.39496    
    2.3088      0.38732    
    2.3280      0.37975    
    2.3472      0.37223    
    2.3664      0.36477    
    2.3855      0.35737    
    2.4047      0.35003    
    2.4239      0.34276    
    2.4431      0.33556    
    2.4623      0.32842    
    2.4814      0.32170    
    2.5006      0.31544    
    2.5198      0.30933    
    2.5390      0.30344    
    2.5582      0.29761    
    2.5773      0.29185    
    2.5965      0.28615    
    2.6157      0.28051    
    2.6349      0.27494    
    2.6541      0.26943    
    2.6732      0.26399    
    2.6924      0.25862    
    2.7116      0.25331    
    2.7308      0.24808    
    2.7500      0.24290    
    2.7691      0.23780    
    2.7883      0.23276    
    2.8075      0.22779    
    2.8267      0.22289    
    2.8459      0.21806    
    2.8650      0.21330    
    2.8842      0.20860    
    2.9034      0.20398    
    2.9226      0.19942    
    2.9418      0.19493    
    2.9609      0.19051    
    2.9801      0.18616    
    2.9993      0.18188    
    3.0185      0.17766    
    3.0377      0.17352    
    3.0568      0.16944    
    3.0760      0.16543    
    3.0952      0.16148    
    3.1144      0.15761    
    3.1336      0.15379    
    3.1527      0.15005    
    3.1719      0.14637    
    3.1911      0.14276    
    3.2103      0.13921    
    3.2295      0.13573    
    3.2486      0.13231    
    3.2678      0.12896    
    3.2870      0.12567    
    3.3062      0.12245    
    3.3254      0.11934    
    3.3445      0.11629    
    3.3637      0.11339    
    3.3829      0.11062    
    3.4021      0.10791    
    3.4213      0.10525    
    3.4404      0.10264    
    3.4596      0.10008    
    3.4788      0.97571E-01
    3.4980      0.95112E-01
    3.5172      0.92702E-01
    3.5363      0.90341E-01
    3.5555      0.88028E-01
    3.5747      0.85762E-01
    3.5939      0.83543E-01
    3.6131      0.81370E-01
    3.6322      0.79243E-01
    3.6514      0.77160E-01
    3.6706      0.75122E-01
    3.6898      0.73128E-01
    3.7090      0.71177E-01
    3.7281      0.69268E-01
    3.7473      0.67401E-01
    3.7665      0.65576E-01
    3.7857      0.63791E-01
    3.8049      0.62047E-01
    3.8240      0.60341E-01
    3.8432      0.58675E-01
    3.8624      0.57046E-01
    3.8816      0.55455E-01
    3.9008      0.53901E-01
    3.9199      0.52383E-01
    3.9391      0.50901E-01
    3.9583      0.49454E-01
    3.9775      0.48042E-01
    3.9967      0.46664E-01
    4.0158      0.45319E-01
    4.0350      0.44006E-01
    4.0542      0.42726E-01
    4.0734      0.41477E-01
    4.0926      0.40260E-01
    4.1117      0.39072E-01
    4.1309      0.37914E-01
    4.1501      0.36786E-01
    4.1693      0.35686E-01
    4.1885      0.34615E-01
    4.2076      0.33571E-01
    4.2268      0.32554E-01
    4.2460      0.31563E-01
    4.2652      0.30598E-01
    4.2844      0.29659E-01
    4.3035      0.28745E-01
    4.3227      0.27855E-01
    4.3419      0.27032E-01
    4.3611      0.26312E-01
    4.3803      0.25608E-01
    4.3994      0.24922E-01
    4.4186      0.24274E-01
    4.4378      0.23650E-01
    4.4570      0.23041E-01
    4.4762      0.22446E-01
    4.4953      0.21865E-01
    4.5145      0.21298E-01
    4.5337      0.20744E-01
    4.5529      0.20202E-01
    4.5721      0.19674E-01
    4.5912      0.19158E-01
    4.6104      0.18655E-01
    4.6296      0.18163E-01
    4.6488      0.17683E-01
    4.6680      0.17215E-01
    4.6871      0.16758E-01
    4.7063      0.16312E-01
    4.7255      0.15877E-01
    4.7447      0.15452E-01
    4.7639      0.15038E-01
    4.7830      0.14634E-01
    4.8022      0.14240E-01
    4.8214      0.13855E-01
    4.8406      0.13480E-01
    4.8598      0.13114E-01
    4.8789      0.12758E-01
    4.8981      0.12410E-01
    4.9173      0.12071E-01
    4.9365      0.11740E-01
    4.9557      0.11418E-01
    4.9748      0.11104E-01
    4.9940      0.10798E-01
    5.0132      0.10499E-01
    5.0324      0.10208E-01
    5.0516      0.99246E-02
    5.0707      0.96483E-02
    5.0899      0.93791E-02
    5.1091      0.91169E-02
    5.1283      0.88614E-02
    5.1475      0.86125E-02
    5.1666      0.83701E-02
    5.1858      0.81339E-02
    5.2050      0.79039E-02
    5.2242      0.76799E-02
    5.2434      0.74618E-02
    5.2625      0.72494E-02
    5.2817      0.70425E-02
    5.3009      0.68412E-02
    5.3201      0.66452E-02
    5.3393      0.64544E-02
    5.3584      0.62686E-02
    5.3776      0.60878E-02
    5.3968      0.59119E-02
    5.4160      0.57407E-02
    5.4352      0.55740E-02
    5.4543      0.54119E-02
    5.4735      0.52542E-02
    5.4927      0.51007E-02
    5.5119      0.49514E-02
    5.5311      0.48062E-02
    5.5502      0.46649E-02
    5.5694      0.45275E-02
    5.5886      0.43939E-02
    5.6078      0.42640E-02
    5.6270      0.41376E-02
    5.6461      0.40147E-02
    5.6653      0.38952E-02
    5.6845      0.37791E-02
    5.7037      0.36662E-02
    5.7229      0.35564E-02
    5.7420      0.34497E-02
    5.7612      0.33460E-02
    5.7804      0.32452E-02
    5.7996      0.31473E-02
    5.8188      0.30521E-02
    5.8379      0.29596E-02
    5.8571      0.28698E-02
    5.8763      0.27825E-02
    5.8955      0.26977E-02
    5.9147      0.26153E-02
    5.9338      0.25352E-02
    5.9530      0.24575E-02
    5.9722      0.23820E-02
    5.9914      0.23112E-02
    6.0106      0.22429E-02
    6.0297      0.21764E-02
    6.0489      0.21119E-02
    6.0681      0.20491E-02
    6.0873      0.19991E-02
    6.1065      0.19531E-02
    6.1256      0.19083E-02
    6.1448      0.18644E-02
    6.1640      0.18215E-02
    6.1832      0.17796E-02
    6.2024      0.17386E-02
    6.2215      0.16985E-02
    6.2407      0.16594E-02
    6.2599      0.16211E-02
    6.2791      0.15837E-02
    6.2983      0.15471E-02
    6.3174      0.15114E-02
    6.3366      0.14764E-02
    6.3558      0.14423E-02
    6.3750      0.14089E-02
    6.3942      0.13763E-02
    6.4133      0.13444E-02
    6.4325      0.13132E-02
    6.4517      0.12827E-02
    6.4709      0.12530E-02
    6.4901      0.12239E-02
    6.5092      0.11954E-02
    6.5284      0.11676E-02
    6.5476      0.11405E-02
    6.5668      0.11139E-02
    6.5860      0.10880E-02
    6.6051      0.10626E-02
    6.6243      0.10379E-02
    6.6435      0.10137E-02
    6.6627      0.99004E-03
    6.6819      0.96694E-03
    6.7010      0.94435E-03
    6.7202      0.92227E-03
    6.7394      0.90070E-03
    6.7586      0.87962E-03
    6.7778      0.85903E-03
    6.7969      0.83890E-03
    6.8161      0.81925E-03
    6.8353      0.80005E-03
    6.8545      0.78128E-03
    6.8737      0.76295E-03
    6.8928      0.74505E-03
    6.9120      0.72754E-03
    6.9312      0.71043E-03
    6.9504      0.69372E-03
    6.9696      0.67740E-03
    6.9887      0.66145E-03
    7.0079      0.64586E-03
    7.0271      0.63064E-03
    7.0463      0.61577E-03
    7.0655      0.60125E-03
    7.0846      0.58706E-03
    7.1038      0.57320E-03
    7.1230      0.55966E-03
    7.1422      0.54644E-03
    7.1614      0.53352E-03
    7.1805      0.52090E-03
    7.1997      0.50857E-03
    7.2189      0.49653E-03
    7.2381      0.48476E-03
    7.2573      0.47327E-03
    7.2764      0.46205E-03
    7.2956      0.45109E-03
    7.3148      0.44038E-03
    7.3340      0.42992E-03
    7.3532      0.41970E-03
    7.3723      0.40973E-03
    7.3915      0.39998E-03
    7.4107      0.39046E-03
    7.4299      0.38117E-03
    7.4491      0.37209E-03
    7.4682      0.36322E-03
    7.4874      0.35456E-03
    7.5066      0.34610E-03
    7.5258      0.33785E-03
    7.5450      0.32978E-03
    7.5641      0.32190E-03
    7.5833      0.31421E-03
    7.6025      0.30670E-03
    7.6217      0.29936E-03
    7.6409      0.29220E-03
    7.6600      0.28520E-03
    7.6792      0.27837E-03
    7.6984      0.27170E-03
    7.7176      0.26518E-03
    7.7368      0.25882E-03
    7.7559      0.25261E-03
    7.7751      0.24655E-03
    7.7943      0.24062E-03
    7.8135      0.23484E-03
    7.8327      0.22919E-03
    7.8518      0.22399E-03
    7.8710      0.22107E-03
    7.8902      0.21819E-03
    7.9094      0.21535E-03
    7.9286      0.21255E-03
    7.9477      0.20979E-03
    7.9669      0.20707E-03
    7.9861      0.20451E-03
    8.0053      0.20211E-03
    8.0245      0.19975E-03
    8.0436      0.19741E-03
    8.0628      0.19510E-03
    8.0820      0.19282E-03
    8.1012      0.19057E-03
    8.1204      0.18835E-03
    8.1395      0.18615E-03
    8.1587      0.18398E-03
    8.1779      0.18184E-03
    8.1971      0.17973E-03
    8.2163      0.17764E-03
    8.2354      0.17558E-03
    8.2546      0.17355E-03
    8.2738      0.17154E-03
    8.2930      0.16956E-03
    8.3122      0.16760E-03
    8.3313      0.16567E-03
    8.3505      0.16376E-03
    8.3697      0.16187E-03
    8.3889      0.16001E-03
    8.4081      0.15817E-03
    8.4272      0.15636E-03
    8.4464      0.15456E-03
    8.4656      0.15279E-03
    8.4848      0.15105E-03
    8.5040      0.14932E-03
    8.5231      0.14761E-03
    8.5423      0.14593E-03
    8.5615      0.14426E-03
    8.5807      0.14262E-03
    8.5999      0.14099E-03
    8.6190      0.13939E-03
    8.6382      0.13780E-03
    8.6574      0.13624E-03
    8.6766      0.13469E-03
    8.6958      0.13317E-03
    8.7149      0.13166E-03
    8.7341      0.13017E-03
    8.7533      0.12870E-03
    8.7725      0.12725E-03
    8.7917      0.12581E-03
    8.8108      0.12439E-03
    8.8300      0.12299E-03
    8.8492      0.12161E-03
    8.8684      0.12024E-03
    8.8876      0.11889E-03
    8.9067      0.11756E-03
    8.9259      0.11624E-03
    8.9451      0.11494E-03
    8.9643      0.11365E-03
    8.9835      0.11238E-03
    9.0026      0.11112E-03
    9.0218      0.10989E-03
    9.0410      0.10866E-03
    9.0602      0.10745E-03
    9.0794      0.10621E-03
    9.0985      0.10495E-03
    9.1177      0.10371E-03
    9.1369      0.10248E-03
    9.1561      0.10126E-03
    9.1753      0.10007E-03
    9.1944      0.98885E-04
    9.2136      0.97717E-04
    9.2328      0.95765E-04
    9.2520      0.93762E-04
    9.2712      0.91800E-04
    9.2903      0.89878E-04
    9.3095      0.87996E-04
    9.3287      0.86154E-04
    9.3479      0.84349E-04
    9.3671      0.82582E-04
    9.3862      0.80852E-04
    9.4054      0.79157E-04
    9.4246      0.77498E-04
    9.4438      0.75874E-04
    9.4630      0.74283E-04
    9.4821      0.72725E-04
    9.5013      0.71199E-04
    9.5205      0.69705E-04
    9.5397      0.68243E-04
    9.5589      0.66810E-04
    9.5780      0.65408E-04
    9.5972      0.64035E-04
    9.6164      0.62690E-04
    9.6356      0.61373E-04
    9.6548      0.60083E-04
    9.6739      0.58821E-04
    9.6931      0.57584E-04
    9.7123      0.56374E-04
    9.7315      0.55188E-04
    9.7507      0.54027E-04
    9.7698      0.52891E-04
    9.7890      0.51778E-04
    9.8082      0.50688E-04
    9.8274      0.49621E-04
    9.8466      0.48577E-04
    9.8657      0.47554E-04
    9.8849      0.46552E-04
    9.9041      0.45572E-04
    9.9233      0.44612E-04
    9.9425      0.43672E-04
    9.9616      0.42751E-04
    9.9808      0.41850E-04
    10.000      0.40968E-04
10.060      0.38325E-04
    10.120      0.35851E-04
    10.180      0.33560E-04
    10.240      0.31431E-04
    10.300      0.29437E-04
    10.360      0.27663E-04
    10.420      0.26015E-04
    10.480      0.24466E-04
    10.540      0.23009E-04
    10.600      0.21638E-04
    10.660      0.20349E-04
    10.720      0.19137E-04
    10.780      0.17997E-04
    10.840      0.16925E-04
    10.900      0.15916E-04
    10.960      0.14968E-04
    11.020      0.14076E-04
    11.080      0.13237E-04
    11.140      0.12448E-04
    11.200      0.11706E-04
    11.260      0.11009E-04
    11.320      0.10352E-04
    11.380      0.97401E-05
    11.440      0.91694E-05
    11.500      0.86323E-05
    11.560      0.81412E-05
    11.620      0.76998E-05
    11.680      0.72825E-05
    11.740      0.68881E-05
    11.800      0.65151E-05
    11.860      0.61625E-05
    11.920      0.58291E-05
    11.980      0.55138E-05
    12.040      0.52158E-05
    12.100      0.49339E-05
    12.160      0.46674E-05
    12.220      0.44153E-05
    12.280      0.41770E-05
    12.340      0.39517E-05
    12.400      0.37386E-05
    12.460      0.35370E-05
    12.520      0.33464E-05
    12.580      0.31662E-05
    12.640      0.29957E-05
    12.700      0.28345E-05
    12.760      0.26820E-05
    12.820      0.25377E-05
    12.880      0.24013E-05
    12.940      0.22722E-05
    13.000      0.21501E-05
    13.060      0.20347E-05
    13.120      0.19254E-05
    13.180      0.18221E-05
    13.240      0.17244E-05
    13.300      0.16319E-05
    13.360      0.15365E-05
    13.420      0.14397E-05
    13.480      0.13490E-05
    13.540      0.12639E-05
    13.600      0.11792E-05
    13.660      0.10997E-05
    13.720      0.10255E-05
    13.780      0.95632E-06
    13.840      0.89173E-06
    13.900      0.83147E-06
    13.960      0.77523E-06
    14.020      0.72277E-06
    14.080      0.67383E-06
    14.140      0.62817E-06
    14.200      0.58557E-06
    14.260      0.54584E-06
    14.320      0.50878E-06
    14.380      0.47422E-06
    14.440      0.44198E-06
    14.500      0.41191E-06
    14.560      0.38387E-06
    14.620      0.35773E-06
    14.680      0.33349E-06
    14.740      0.31270E-06
    14.800      0.29320E-06
    14.860      0.27492E-06
    14.920      0.25852E-06
    14.980      0.24868E-06
    15.040      0.23924E-06
    15.100      0.23017E-06
    15.160      0.22145E-06
    15.220      0.21308E-06
    15.280      0.20503E-06
    15.340      0.19730E-06
    15.400      0.18987E-06
    15.460      0.18273E-06
    15.520      0.17587E-06
    15.580      0.16927E-06
    15.640      0.16294E-06
    15.700      0.15684E-06
    15.760      0.15098E-06
    15.820      0.14535E-06
    15.880      0.13994E-06
    15.940      0.13533E-06
    16.000      0.13121E-06
    16.060      0.12722E-06
    16.120      0.12337E-06
    16.180      0.12049E-06
    16.240      0.11926E-06
    16.300      0.11804E-06
    16.360      0.11683E-06
    16.420      0.11565E-06
    16.480      0.11447E-06
    16.540      0.11332E-06
    16.600      0.11217E-06
    16.660      0.11105E-06
    16.720      0.10993E-06
    16.780      0.10884E-06
    16.840      0.10775E-06
    16.900      0.10668E-06
    16.960      0.10563E-06
    17.020      0.10458E-06
    17.080      0.10356E-06
    17.140      0.10254E-06
    17.200      0.10154E-06
    17.260      0.10387E-06
    17.320      0.10974E-06
    17.380      0.11590E-06
    17.440      0.12236E-06
    17.500      0.12913E-06
    17.560      0.13715E-06
    17.620      0.14577E-06
    17.680      0.15487E-06
    17.740      0.16446E-06
    17.800      0.17496E-06
    17.860      0.18873E-06
    17.920      0.20345E-06
    17.980      0.21918E-06
    18.040      0.23599E-06
    18.100      0.28287E-06
    18.160      0.41470E-06
    18.220      0.60135E-06
    18.280      0.86288E-06
    18.340      0.12256E-05
    18.400      0.17234E-05
    18.460      0.24005E-05
    18.520      0.33127E-05
    18.580      0.45302E-05
    18.640      0.61413E-05
    18.700      0.82554E-05
    18.760      0.11006E-04
    18.820      0.14558E-04
    18.880      0.19107E-04
    18.940      0.24891E-04
    19.000      0.31092E-04
    19.060      0.37237E-04
    19.120      0.44434E-04
    19.180      0.52831E-04
    19.240      0.62593E-04
    19.300      0.70586E-04
    19.360      0.73453E-04
    19.420      0.76415E-04
    19.480      0.79473E-04
    19.540      0.82630E-04
    19.600      0.85889E-04
    19.660      0.89252E-04
    19.720      0.92720E-04
    19.780      0.96299E-04
    19.840      0.99987E-04
    19.900      0.10379E-03
    19.960      0.10771E-03
    20.020      0.11175E-03
    20.080      0.11591E-03
    20.140      0.12019E-03
    20.200      0.12460E-03
    20.260      0.12693E-03
    20.320      0.12727E-03
    20.380      0.12761E-03
    20.440      0.12795E-03
    20.500      0.12829E-03
    20.560      0.12853E-03
    20.620      0.12751E-03
    20.680      0.12650E-03
    20.740      0.12549E-03
    20.800      0.12450E-03
    20.860      0.12351E-03
    20.920      0.12254E-03
    20.980      0.12158E-03
    21.040      0.12062E-03
    21.100      0.11968E-03
    21.160      0.11874E-03
    21.220      0.11781E-03
    21.280      0.11689E-03
    21.340      0.11599E-03
    21.400      0.11508E-03
    21.460      0.11419E-03
    21.520      0.11331E-03
    21.580      0.11258E-03
    21.640      0.11256E-03
    21.700      0.11253E-03
    21.760      0.11250E-03
    21.820      0.11247E-03
    21.880      0.11244E-03
    21.940      0.11243E-03
    22.000      0.11245E-03
    22.060      0.11248E-03
    22.120      0.11250E-03
    22.180      0.11252E-03
    22.240      0.11254E-03
    22.300      0.11256E-03
    22.360      0.11258E-03
    22.420      0.11260E-03
    22.480      0.11262E-03
    22.540      0.11265E-03
    22.600      0.11267E-03
    22.660      0.11269E-03
    22.720      0.11271E-03
    22.780      0.11273E-03
    22.840      0.11275E-03
    22.900      0.11277E-03
    22.960      0.11279E-03
    23.020      0.11281E-03
    23.080      0.11283E-03
    23.140      0.11285E-03
    23.200      0.11287E-03
    23.260      0.11289E-03
    23.320      0.11291E-03
    23.380      0.11293E-03
    23.440      0.11290E-03
    23.500      0.11287E-03
    23.560      0.11285E-03
    23.620      0.11282E-03
    23.680      0.11280E-03
    23.740      0.11277E-03
    23.800      0.11263E-03
    23.860      0.11247E-03
    23.920      0.11231E-03
    23.980      0.11215E-03
    24.040      0.11199E-03
    24.100      0.11184E-03
    24.160      0.11168E-03
    24.220      0.11152E-03
    24.280      0.11137E-03
    24.340      0.11121E-03
    24.400      0.11106E-03
    24.460      0.11090E-03
    24.520      0.11075E-03
    24.580      0.11059E-03
    24.640      0.11044E-03
    24.700      0.11029E-03
    24.760      0.11014E-03
    24.820      0.10999E-03
    24.880      0.10984E-03
    24.940      0.10969E-03
    25.000      0.10954E-03
    25.060      0.10939E-03
    25.120      0.10924E-03
    25.180      0.10909E-03
    25.240      0.10895E-03
    25.300      0.10880E-03
    25.360      0.10865E-03
    25.420      0.10851E-03
    25.480      0.10836E-03
    25.540      0.10822E-03
    25.600      0.10807E-03
    25.660      0.10793E-03
    25.720      0.10779E-03
    25.780      0.10701E-03
    25.840      0.10608E-03
    25.900      0.10515E-03
    25.960      0.10423E-03
    26.020      0.10332E-03
    26.080      0.10242E-03
    26.140      0.10153E-03
    26.200      0.10044E-03
    26.260      0.99326E-04
    26.320      0.98225E-04
    26.380      0.97138E-04
    26.440      0.96063E-04
    26.500      0.95002E-04
    26.560      0.93954E-04
    26.620      0.92918E-04
    26.680      0.91894E-04
    26.740      0.90883E-04
    26.800      0.89884E-04
    26.860      0.88897E-04
    26.920      0.87922E-04
    26.980      0.86958E-04
    27.040      0.86006E-04
    27.100      0.85066E-04
    27.160      0.84136E-04
    27.220      0.83218E-04
    27.280      0.82311E-04
    27.340      0.81414E-04
    27.400      0.80529E-04
    27.460      0.79654E-04
    27.520      0.78789E-04
    27.580      0.77935E-04
    27.640      0.77091E-04
    27.700      0.76257E-04
    27.760      0.75432E-04
    27.820      0.74618E-04
    27.880      0.73813E-04
    27.940      0.73017E-04
    28.000      0.72231E-04
    28.060      0.71454E-04
    28.120      0.70686E-04
    28.180      0.69927E-04
    28.240      0.69176E-04
    28.300      0.68435E-04
    28.360      0.67703E-04
    28.420      0.66978E-04
    28.480      0.66263E-04
    28.540      0.65555E-04
    28.600      0.64856E-04
    28.660      0.64165E-04
    28.720      0.63482E-04
    28.780      0.62807E-04
    28.840      0.61976E-04
    28.900      0.61119E-04
    28.960      0.60273E-04
    29.020      0.59440E-04
    29.080      0.58619E-04
    29.140      0.57810E-04
    29.200      0.57012E-04
    29.260      0.56210E-04
    29.320      0.55087E-04
    29.380      0.53986E-04
    29.440      0.52907E-04
    29.500      0.51850E-04
    29.560      0.50814E-04
    29.620      0.49798E-04
    29.680      0.48803E-04
    29.740      0.47828E-04
    29.800      0.46873E-04
    29.860      0.45936E-04
    29.920      0.45018E-04
    29.980      0.44119E-04
    30.040      0.43237E-04
    30.100      0.42373E-04
    30.160      0.41527E-04
    30.220      0.40697E-04
    30.280      0.39884E-04
    30.340      0.39087E-04
    30.400      0.38306E-04
    30.460      0.37540E-04
    30.520      0.36790E-04
    30.580      0.36055E-04
    30.640      0.35335E-04
    30.700      0.34629E-04
    30.760      0.33937E-04
    30.820      0.33259E-04
    30.880      0.32594E-04
    30.940      0.31943E-04
    31.000      0.31304E-04
    31.060      0.30679E-04
    31.120      0.30066E-04
    31.180      0.29465E-04
    31.240      0.28876E-04
    31.300      0.28299E-04
    31.360      0.27733E-04
    31.420      0.27179E-04
    31.480      0.26636E-04
    31.540      0.26104E-04
    31.600      0.25582E-04
    31.660      0.25071E-04
    31.720      0.24566E-04
    31.780      0.24065E-04
    31.840      0.23574E-04
    31.900      0.23093E-04
    31.960      0.22622E-04
    32.020      0.22161E-04
    32.080      0.21709E-04
    32.140      0.21266E-04
    32.200      0.20832E-04
    32.260      0.20286E-04
    32.320      0.19720E-04
    32.380      0.19169E-04
    32.440      0.18633E-04
    32.500      0.18111E-04
    32.560      0.17604E-04
    32.620      0.17110E-04
    32.680      0.16630E-04
    32.740      0.16164E-04
    32.800      0.15709E-04
    32.860      0.15268E-04
    32.920      0.14838E-04
    32.980      0.14420E-04
    33.040      0.14014E-04
    33.100      0.13619E-04
    33.160      0.13234E-04
    33.220      0.12861E-04
    33.280      0.12497E-04
    33.340      0.12144E-04
    33.400      0.11800E-04
    33.460      0.11466E-04
    33.520      0.11141E-04
    33.580      0.10825E-04
    33.640      0.10518E-04
    33.700      0.10219E-04
    33.760      0.99283E-05
    33.820      0.96459E-05
    33.880      0.93713E-05
    33.940      0.91044E-05
    34.000      0.88449E-05
    34.060      0.85926E-05
    34.120      0.83473E-05
    34.180      0.81088E-05
    34.240      0.78770E-05
    34.300      0.76517E-05
    34.360      0.74326E-05
    34.420      0.72197E-05
    34.480      0.70127E-05
    34.540      0.68115E-05
    34.600      0.66160E-05
    34.660      0.64259E-05
    34.720      0.62411E-05
    34.780      0.60616E-05
    34.840      0.58871E-05
    34.900      0.57175E-05
    34.960      0.55527E-05
    35.020      0.53925E-05
    35.080      0.52369E-05
    35.140      0.50856E-05
    35.200      0.49386E-05
    35.260      0.47958E-05
    35.320      0.46569E-05
    35.380      0.45221E-05
    35.440      0.43910E-05
    35.500      0.42610E-05
    35.560      0.41323E-05
    35.620      0.40074E-05
    35.680      0.38862E-05
    35.740      0.37685E-05
    35.800      0.36544E-05
    35.860      0.35435E-05
    35.920      0.34360E-05
    35.980      0.33317E-05
    36.040      0.32304E-05
    36.100      0.31293E-05
    36.160      0.30312E-05
    36.220      0.29360E-05
    36.280      0.28438E-05
    36.340      0.27544E-05
    36.400      0.26677E-05
    36.460      0.25837E-05
    36.520      0.25023E-05
    36.580      0.24233E-05
    36.640      0.23468E-05
    36.700      0.22726E-05
    36.760      0.22008E-05
    36.820      0.21311E-05
    36.880      0.20636E-05
    36.940      0.19982E-05
    37.000      0.19348E-05
    37.060      0.18733E-05
    37.120      0.18138E-05
    37.180      0.17561E-05
    37.240      0.17002E-05
    37.300      0.16460E-05
    37.360      0.15935E-05
    37.420      0.15427E-05
    37.480      0.14934E-05
    37.540      0.14457E-05
    37.600      0.13994E-05
    37.660      0.13546E-05
    37.720      0.13112E-05
    37.780      0.12692E-05
    37.840      0.12285E-05
    37.900      0.11890E-05
    37.960      0.11508E-05
    38.020      0.11138E-05
    38.080      0.10779E-05
    38.140      0.10432E-05
    38.200      0.10095E-05
    38.260      0.97695E-06
    38.320      0.94540E-06
    38.380      0.91484E-06
    38.440      0.88525E-06
    38.500      0.85659E-06
    38.560      0.82884E-06
    38.620      0.80197E-06
    38.680      0.77594E-06
    38.740      0.75075E-06
    38.800      0.72635E-06
    38.860      0.70272E-06
    38.920      0.67985E-06
    38.980      0.65770E-06
    39.040      0.63626E-06
    39.100      0.61550E-06
    39.160      0.59541E-06
    39.220      0.57595E-06
    39.280      0.55712E-06
    39.340      0.53889E-06
    39.400      0.52124E-06
    39.460      0.50416E-06
    39.520      0.48762E-06
    39.580      0.47162E-06
    39.640      0.45613E-06
    39.700      0.44113E-06
    39.760      0.42662E-06
    39.820      0.41257E-06
    39.880      0.39897E-06
    39.940      0.38581E-06
    40.000      0.37308E-06
